{
    "resourceType": "Bundle",
    "id": "b4efef3a-749c-457d-956b-568e22768bf3",
    "identifier": {
        "value": "b4efef3a-749c-457d-956b-568e22768bf3"
    },
    "type": "message",
    "timestamp": "2023-05-06T05:29:16.000-05:00",
    "entry": [
        {
            "fullUrl": "MessageHeader/3b5e0ea5-f204-4cb1-8027-7adf07d8065b",
            "resource": {
                "resourceType": "MessageHeader",
                "id": "3b5e0ea5-f204-4cb1-8027-7adf07d8065b",
                "meta": {
                    "tag": [
                        {
                            "system": "http://terminology.hl7.org/CodeSystem/v2-0103",
                            "code": "P",
                            "display": "Production"
                        }
                    ]
                },
                "eventCoding": {
                    "system": "http://terminology.hl7.org/CodeSystem/v2-0003",
                    "code": "O21",
                    "display": "OML - Laboratory order"
                },
                "source": {
                    "name": "CDC Trusted Intermediary",
                    "endpoint": "https://reportstream.cdc.gov/"
                }
            }
        },
        {
            "fullUrl": "Provenance/3eb5944e-c7da-44d4-80dd-0763c63175c0",
            "resource": {
                "resourceType": "Provenance",
                "id": "3eb5944e-c7da-44d4-80dd-0763c63175c0",
                "recorded": "2023-05-06T05:29:16.000-05:00",
                "agent": [
                    {
                        "who": {
                            "reference": "Device/d33c30a0-3ea9-4464-8a51-a197eac9a375",
                            "type": "Device"
                        }
                    }
                ],
                "target": [
                    {
                        "reference": "Patient/09a7a7cc-7456-4f09-bdf6-ebc730902fd2",
                        "type": "Patient"
                    }
                ],
                "activity": {
                    "coding": [
                        {
                            "system": "http://terminology.hl7.org/CodeSystem/v2-0003",
                            "code": "O21",
                            "display": "OML - Laboratory order"
                        }
                    ]
                }
            }
        },
        {
            "fullUrl": "Device/d33c30a0-3ea9-4464-8a51-a197eac9a375",
            "resource": {
                "resourceType": "Device",
                "id": "d33c30a0-3ea9-4464-8a51-a197eac9a375",
                "identifier": [
                    {
                        "system": "https://reportstream.cdc.gov/",
                        "value": "report-stream"
                    }
                ]
            }
        },
        {
            "fullUrl": "Patient/09a7a7cc-7456-4f09-bdf6-ebc730902fd2",
            "resource": {
                "resourceType": "Patient",
                "id": "09a7a7cc-7456-4f09-bdf6-ebc730902fd2",
                "identifier": [
                    {
                        "type": {
                            "coding": [
                                {
                                    "system": "http://terminology.hl7.org/CodeSystem/v2-0203",
                                    "code": "MR",
                                    "display": "Medical Record Number"
                                }
                            ]
                        },
                        "value": "11102779"
                    }
                ],
                "name": [
                    {
                        "use": "official",
                        "family": "Smith",
                        "given": [
                            "BB Sarah"
                        ]
                    }
                ],
                "gender": "male",
                "birthDate": "2023-05-04",
                "_birthDate": {
                    "extension": [
                        {
                            "url": "http://hl7.org/fhir/StructureDefinition/patient-birthTime",
                            "valueDateTime": "2023-05-04T13:10:23-05:00"
                        }
                    ]
                },
                "multipleBirthBoolean": false,
                "address": [
                    {
                        "line": [
                            "555 STATE HIGHWAY 13"
                        ],
                        "city": "DEER CREEK",
                        "state": "MN",
                        "postalCode": "56527-9657",
                        "country": "USA"
                    }
                ],
                "contact": [
                    {
                        "relationship": [
                            {
                                "coding": [
                                    {
                                        "system": "http://terminology.hl7.org/CodeSystem/v2-0131",
                                        "code": "N",
                                        "display": "Next-of-Kin"
                                    },
                                    {
                                        "system": "http://terminology.hl7.org/CodeSystem/v3-RoleCode",
                                        "code": "MTH",
                                        "display": "mother"
                                    }
                                ],
                                "name": {
                                    "family": "Smith",
                                    "given": [
                                        "Sadie",
                                        "S"
                                    ]
                                },
                                "address": {
                                    "line": [
                                        "555 STATE HIGHWAY 13"
                                    ],
                                    "city": "DEER CREEK",
                                    "state": "MN",
                                    "postalCode": "56527-9657",
                                    "country": "USA"
                                },
                                "telecom": [
                                    {
                                        "system": "phone",
                                        "value": "763-555-5555"
                                    }
                                ]
                            }
                        ]
                    }
                ]
            }
        },
        {
            "fullUrl": "Practitioner/d8f5b686-cdfc-48b4-b3ec-8d08ecb6ecaa",
            "resource": {
                "resourceType": "Practitioner",
                "id": "d8f5b686-cdfc-48b4-b3ec-8d08ecb6ecaa",
                "identifier": [
                    {
                        "system": "http://hl7.org/fhir/sid/us-npi",
                        "value": "1265136360"
                    }
                ],
                "name": [
                    {
                        "family": "Jones",
                        "given": [
                            "Jane"
                        ]
                    }
                ]
            }
        },
        {
            "fullUrl": "Organization/3f55d0e9-0780-4b8d-b3b6-d0ae078af275",
            "resource": {
                "resourceType": "Organization",
                "id": "3f55d0e9-0780-4b8d-b3b6-d0ae078af275",
                "identifier": [
                    {
                        "system": "urn:oid:2.16.840.1.113883.3.37.4",
                        "value": "ST. CLOUD HOSPITAL"
                    },
                    {
                        "system": "urn:oid:2.16.840.1.113883.3.37.4",
                        "value": "MN Public Health Lab"
                    }
                ],
                "name": "ST. CLOUD HOSPITAL"
            }
        },
        {
            "resourceType": "Observation",
            "id": "example",
            "status": "final",
            "category": [
                {
                    "coding": [
                        {
                            "system": "http://terminology.hl7.org/CodeSystem/observation-category",
                            "code": "vital-signs",
                            "display": "Vital Signs"
                        }
                    ],
                    "text": "Vital Signs"
                }
            ],
            "code": {
                "coding": [
                    {
                        "system": "http://loinc.org",
                        "code": "8339-4",
                        "display": "BIRTH WEIGHT MEASURED"
                    }
                ],
                "text": "BIRTH WEIGHT MEASURED"
            },
            "subject": {
                "reference": "Patient/09a7a7cc-7456-4f09-bdf6-ebc730902fd2",
                "display": "BB Sarah Smith"
            },
            "effectiveDateTime": "2023-05-06T05:00:00-05:00",
            "valueQuantity": {
                "value": 1769.859285,
                "unit": "g",
                "system": "http://unitsofmeasure.org",
                "code": "g"
            },
            "interpretation": [
                {
                    "coding": [
                        {
                            "system": "http://terminology.hl7.org/CodeSystem/v3-ObservationInterpretation",
                            "code": "N",
                            "display": "Normal"
                        }
                    ],
                    "text": "Normal"
                }
            ]
        },
        {
            "resourceType": "Observation",
            "id": "example2",
            "status": "final",
            "category": [
                {
                    "coding": [
                        {
                            "system": "http://terminology.hl7.org/CodeSystem/observation-category",
                            "code": "vital-signs",
                            "display": "Vital Signs"
                        }
                    ],
                    "text": "Vital Signs"
                }
            ],
            "code": {
                "coding": [
                    {
                        "system": "http://loinc.org",
                        "code": "57714-8",
                        "display": "OBSTETRIC ESTIMATION OF GESTATIONAL AGE"
                    }
                ],
                "text": "OBSTETRIC ESTIMATION OF GESTATIONAL AGE"
            },
            "subject": {
                "reference": "Patient/09a7a7cc-7456-4f09-bdf6-ebc730902fd2",
                "display": "BB Sarah Smith"
            },
            "effectiveDateTime": "2023-05-06T05:00:00-05:00",
            "valueQuantity": {
                "value": 32,
                "unit": "wk",
                "system": "http://unitsofmeasure.org",
                "code": "wk"
            }
        },
        {
            "resourceType": "Observation",
            "id": "example3",
            "status": "final",
            "category": [
                {
                    "coding": [
                        {
                            "system": "http://terminology.hl7.org/CodeSystem/observation-category",
                            "code": "laboratory",
                            "display": "Laboratory"
                        }
                    ],
                    "text": "Laboratory"
                }
            ],
            "code": {
                "coding": [
                    {
                        "system": "http://loinc.org",
                        "code": "57713-0",
                        "display": "INFANT FACTORS THAT AFFECT NEWBORN SCREENING INTERPRETATION"
                    }
                ],
                "text": "INFANT FACTORS THAT AFFECT NEWBORN SCREENING INTERPRETATION"
            },
            "subject": {
                "reference": "Patient/09a7a7cc-7456-4f09-bdf6-ebc730902fd2",
                "display": "BB Sarah Smith"
            },
            "effectiveDateTime": "2023-05-06T05:00:00-05:00",
            "valueCodeableConcept": {
                "coding": [
                    {
                        "system": "http://loinc.org",
                        "code": "LA12419-0",
                        "display": "INFANT IN NICU AT TIME OF SPECIMEN COLLECTION"
                    }
                ],
                "text": "INFANT IN NICU AT TIME OF SPECIMEN COLLECTION"
            }
        },
        {
            "resourceType": "Observation",
            "id": "example4",
            "status": "final",
            "category": [
                {
                    "coding": [
                        {
                            "system": "http://terminology.hl7.org/CodeSystem/observation-category",
                            "code": "social-history",
                            "display": "Social History"
                        }
                    ],
                    "text": "Social History"
                }
            ],
            "code": {
                "coding": [
                    {
                        "system": "http://loinc.org",
                        "code": "MNDSIB",
                        "display": "DOES THE BABY HAVE A DECEASED SIBLING?"
                    }
                ],
                "text": "DOES THE BABY HAVE A DECEASED SIBLING?"
            },
            "subject": {
                "reference": "Patient/09a7a7cc-7456-4f09-bdf6-ebc730902fd2",
                "display": "BB Sarah Smith"
            },
            "effectiveDateTime": "2023-05-06T05:00:00-05:00",
            "valueCodeableConcept": {
                "coding": [
                    {
                        "system": "http://loinc.org",
                        "code": "N",
                        "display": "No"
                    }
                ],
                "text": "No"
            }
        },
        {
            "resourceType": "Observation",
            "id": "example5",
            "status": "final",
            "category": [
                {
                    "coding": [
                        {
                            "system": "http://terminology.hl7.org/CodeSystem/observation-category",
                            "code": "social-history",
                            "display": "Social History"
                        }
                    ],
                    "text": "Social History"
                }
            ],
            "code": {
                "coding": [
                    {
                        "system": "http://loinc.org",
                        "code": "MNDEFECT",
                        "display": "DOES THE BABY HAVE BIRTH DEFECTS?"
                    }
                ],
                "text": "DOES THE BABY HAVE BIRTH DEFECTS?"
            },
            "subject": {
                "reference": "Patient/09a7a7cc-7456-4f09-bdf6-ebc730902fd2",
                "display": "BB Sarah Smith"
            },
            "effectiveDateTime": "2023-05-06T05:00:00-05:00",
            "valueCodeableConcept": {
                "coding": [
                    {
                        "system": "http://loinc.org",
                        "code": "N",
                        "display": "No"
                    }
                ],
                "text": "No"
            }
        },
        {
            "resourceType": "Observation",
            "id": "example6",
            "status": "final",
            "category": [
                {
                    "coding": [
                        {
                            "system": "http://terminology.hl7.org/CodeSystem/observation-category",
                            "code": "social-history",
                            "display": "Social History"
                        }
                    ],
                    "text": "Social History"
                }
            ],
            "code": {
                "coding": [
                    {
                        "system": "http://loinc.org",
                        "code": "MNFAM",
                        "display": "FAMILY HISTORY OF DISORDER ON MN SCREENING PANEL"
                    }
                ],
                "text": "FAMILY HISTORY OF DISORDER ON MN SCREENING PANEL"
            },
            "subject": {
                "reference": "Patient/09a7a7cc-7456-4f09-bdf6-ebc730902fd2",
                "display": "BB Sarah Smith"
            },
            "effectiveDateTime": "2023-05-06T05:00:00-05:00",
            "valueCodeableConcept": {
                "coding": [
                    {
                        "system": "http://loinc.org",
                        "code": "N",
                        "display": "No"
                    }
                ],
                "text": "No"
            }
        },
        {
            "resourceType": "Observation",
            "id": "example7",
            "status": "final",
            "category": [
                {
                    "coding": [
                        {
                            "system": "http://terminology.hl7.org/CodeSystem/observation-category",
                            "code": "survey",
                            "display": "Survey"
                        }
                    ],
                    "text": "Survey"
                }
            ],
            "code": {
                "coding": [
                    {
                        "system": "http://loinc.org",
                        "code": "67704-7",
                        "display": "FEEDING TYPES"
                    }
                ],
                "text": "FEEDING TYPES"
            },
            "subject": {
                "reference": "Patient/09a7a7cc-7456-4f09-bdf6-ebc730902fd2",
                "display": "BB Sarah Smith"
            },
            "effectiveDateTime": "2023-05-06T05:00:00-05:00",
            "valueCodeableConcept": {
                "coding": [
                    {
                        "system": "http://loinc.org",
                        "code": "LA12418-2",
                        "display": "TPN"
                    }
                ],
                "text": "TPN"
            }
        },
        {
            "resourceType": "Observation",
            "id": "example8",
            "status": "final",
            "category": [
                {
                    "coding": [
                        {
                            "system": "http://terminology.hl7.org/CodeSystem/observation-category",
                            "code": "survey",
                            "display": "Survey"
                        }
                    ],
                    "text": "Survey"
                }
            ],
            "code": {
                "coding": [
                    {
                        "system": "http://loinc.org",
                        "code": "67704-7",
                        "display": "FEEDING TYPES"
                    }
                ],
                "text": "FEEDING TYPES"
            },
            "subject": {
                "reference": "Patient/09a7a7cc-7456-4f09-bdf6-ebc730902fd2",
                "display": "BB Sarah Smith"
            },
            "effectiveDateTime": "2023-05-06T05:00:00-05:00",
            "valueCodeableConcept": {
                "coding": [
                    {
                        "system": "http://loinc.org",
                        "code": "LA16914-6",
                        "display": "BREAST MILK"
                    }
                ],
                "text": "BREAST MILK"
            }
        },
        {
            "resourceType": "Observation",
            "id": "example9",
            "status": "final",
            "category": [
                {
                    "coding": [
                        {
                            "system": "http://terminology.hl7.org/CodeSystem/observation-category",
                            "code": "laboratory",
                            "display": "Laboratory"
                        }
                    ],
                    "text": "Laboratory"
                }
            ],
            "code": {
                "coding": [
                    {
                        "system": "http://loinc.org",
                        "code": "57723-9",
                        "display": "UNIQUE BAR CODE NUMBER OF CURRENT SAMPLE"
                    }
                ],
                "text": "UNIQUE BAR CODE NUMBER OF CURRENT SAMPLE"
            },
            "subject": {
                "reference": "Patient/09a7a7cc-7456-4f09-bdf6-ebc730902fd2",
                "display": "BB Sarah Smith"
            },
            "effectiveDateTime": "2023-05-06T05:00:00-05:00",
            "valueString": "0516199364"
        },
        {
            "resourceType": "Observation",
            "id": "example10",
            "status": "final",
            "category": [
                {
                    "coding": [
                        {
                            "system": "http://terminology.hl7.org/CodeSystem/observation-category",
                            "code": "social-history",
                            "display": "Social History"
                        }
                    ],
                    "text": "Social History"
                }
            ],
            "code": {
                "coding": [
                    {
                        "system": "http://loinc.org",
                        "code": "62328-0",
                        "display": "DISCHARGE PROVIDER PRACTICE PHONE NUMBER"
                    }
                ],
                "text": "DISCHARGE PROVIDER PRACTICE PHONE NUMBER"
            },
            "subject": {
                "reference": "Patient/09a7a7cc-7456-4f09-bdf6-ebc730902fd2",
                "display": "BB Sarah Smith"
            },
            "effectiveDateTime": "2023-05-06T05:00:00-05:00",
            "valueString": "Daniel Davis/218-555-1000"
        },
        {
            "resourceType": "Observation",
            "id": "example11",
            "status": "final",
            "category": [
                {
                    "coding": [
                        {
                            "system": "http://terminology.hl7.org/CodeSystem/observation-category",
                            "code": "social-history",
                            "display": "Social History"
                        }
                    ],
                    "text": "Social History"
                }
            ],
            "code": {
                "coding": [
                    {
                        "system": "http://loinc.org",
                        "code": "62324-9",
                        "display": "POST-DISCHARGE PROVIDER NAME"
                    }
                ],
                "text": "POST-DISCHARGE PROVIDER NAME"
            },
            "subject": {
                "reference": "Patient/09a7a7cc-7456-4f09-bdf6-ebc730902fd2",
                "display": "BB Sarah Smith"
            },
            "effectiveDateTime": "2023-05-06T05:00:00-05:00",
            "valueString": "DAVIS, DANIEL, MD"
        },
        {
            "resourceType": "Observation",
            "id": "example12",
            "status": "final",
            "category": [
                {
                    "coding": [
                        {
                            "system": "http://terminology.hl7.org/CodeSystem/observation-category",
                            "code": "social-history",
                            "display": "Social History"
                        }
                    ],
                    "text": "Social History"
                }
            ],
            "code": {
                "coding": [
                    {
                        "system": "http://loinc.org",
                        "code": "62326-4",
                        "display": "POST-DISCHARGE PROVIDER PRACTICE NAME"
                    }
                ],
                "text": "POST-DISCHARGE PROVIDER PRACTICE NAME"
            },
            "subject": {
                "reference": "Patient/09a7a7cc-7456-4f09-bdf6-ebc730902fd2",
                "display": "BB Sarah Smith"
            },
            "effectiveDateTime": "2023-05-06T05:00:00-05:00",
            "valueString": "Lakeridge Health Revere"
        },
        {
            "resourceType": "Specimen",
            "id": "example3",
            "type": {
                "coding": [
                    {
                        "system": "http://snomed.info/sct",
                        "code": "440500007",
                        "display": "Blood spot specimen"
                    }
                ],
                "text": "Blood spot specimen"
            },
            "subject": {
                "reference": "Patient/09a7a7cc-7456-4f09-bdf6-ebc730902fd2"
            },
            "receivedTime": "2023-05-06T06:00:00-05:00"
        },
        {
            "resourceType": "ServiceRequest",
            "id": "example14",
            "status": "active",
            "subject": {
                "reference": "Patient/09a7a7cc-7456-4f09-bdf6-ebc730902fd2"
            },
            "code": {
                "coding": [
                    {
                        "system": "http://loinc.org",
                        "code": "54089-8",
                        "display": "Newborn screening panel American Health Information Community (AHIC)"
                    }
                ],
                "text": "Newborn screening panel American Health Information Community (AHIC)"
            },
            "authoredOn": "2023-05-06T05:00:00Z"
        },
        {
            "resourceType": "ServiceRequest",
            "id": "example15",
            "status": "active",
            "subject": {
                "reference": "Patient/09a7a7cc-7456-4f09-bdf6-ebc730902fd2"
            },
            "code": {
                "coding": [
                    {
                        "system": "http://loinc.org",
                        "code": "57717-1",
                        "display": "Newborn screen card data panel"
                    }
                ],
                "text": "Newborn screen card data panel"
            }
        }
    ]
}
