{
  "resourceType": "Bundle",
  "id": "969bcbb3-cd34-49be-ac4f-e1b8479b8219",
  "identifier": {
    "value": "969bcbb3-cd34-49be-ac4f-e1b8479b8219"
  },
  "type": "message",
  "timestamp": "2023-03-20T10:00:37.103-05:00",
  "entry": [
    {
      "fullUrl": "MessageHeader/3b5e0ea5-f204-4cb1-8027-7adf07d8065b",
      "resource": {
        "resourceType": "MessageHeader",
        "id": "3b5e0ea5-f204-4cb1-8027-7adf07d8065b",
        "meta": {
          "tag": [
            {
              "system": "http://terminology.hl7.org/CodeSystem/v2-0103",
              "code": "P",
              "display": "Production"
            }
          ]
        },
        "eventCoding": {
          "system": "http://terminology.hl7.org/CodeSystem/v2-0003",
          "code": "O21",
          "display": "OML - Laboratory order"
        },
        "source": {
          "name": "CDC Trusted Intermediary",
          "endpoint": "https://reportstream.cdc.gov/"
        }
      }
    },
    {
      "fullUrl": "Provenance/cd2e9813-d9cd-4cb9-bf05-7dcdb6b5fe10",
      "resource": {
        "resourceType": "Provenance",
        "id": "cd2e9813-d9cd-4cb9-bf05-7dcdb6b5fe10",
        "recorded": "2023-03-02T21:30:42.888+00:00",
        "agent": [
          {
            "who":
              {
                "reference": "Device/d33c30a0-3ea9-4464-8a51-a197eac9a375",
                "type": "Device"
              }
          }
        ],
        "target": [
          {
            "reference": "Patient/3e2d39d3-1e7d-4d2e-96a2-721e29fbba92",
            "type": "Patient"
          }
        ],
        "activity": {
          "coding": [
            {
              "system": "http://terminology.hl7.org/CodeSystem/v2-0003",
              "code": "O21",
              "display": "OML - Laboratory order"
            }
          ]
        }
      }
    },
    {
      "fullUrl": "Device/d33c30a0-3ea9-4464-8a51-a197eac9a375",
      "resource": {
        "resourceType": "Device",
        "id": "d33c30a0-3ea9-4464-8a51-a197eac9a375",
        "identifier": [
          {
            "system": "https://reportstream.cdc.gov/",
            "value": "report-stream"
          }
        ]
      }
    },
    {
      "fullUrl": "Patient/3e2d39d3-1e7d-4d2e-96a2-721e29fbba92",
      "resource": {
        "resourceType": "Patient",
        "id": "3e2d39d3-1e7d-4d2e-96a2-721e29fbba92",
        "extension": [
          {
            "url": "http://hl7.org/fhir/us/core/StructureDefinition/us-core-race",
            "extension": [
              {
                "url": "text",
                "valueString": "Asian"
              }
            ]
          }
        ],
        "identifier": [
          {
            "type": {
              "coding": [
                {
                  "system": "http://terminology.hl7.org/CodeSystem/v2-0203",
                  "code": "MR",
                  "display": "Medical Record Number"
                }
              ]
            },
            "value": "MRN7465737865"
          }
        ],
        "name": [
          {
            "use": "official",
            "family": "Solo",
            "given": [
              "Jaina"
            ]
          }
        ],
        "gender": "female",
        "birthDate": "2017-05-15",
        "_birthDate": {
          "extension": [
            {
              "url": "http://hl7.org/fhir/StructureDefinition/patient-birthTime",
              "valueDateTime": "2017-05-15T11:11:00-05:00"
            }
          ]
        },
        "multipleBirthInteger": 1,
        "contact": [
          {
            "relationship": [
              {
                "coding": [
                  {
                    "system": "http://terminology.hl7.org/CodeSystem/v2-0131",
                    "code": "N",
                    "display": "Next-of-Kin"
                  }
                ]
              }
            ],
            "name": {
              "family": "Organa",
              "given": [
                "Leia"
              ]
            },
            "telecom": [
              {
                "system": "phone",
                "value": "+31201234567"
              }
            ]
          }
        ]
      }
    },
    {
      "fullUrl": "ServiceRequest/0beae7d1-7b3a-4a80-a3d3-7c2ae5e61e15",
      "resource": {
        "resourceType": "ServiceRequest",
        "id": "0beae7d1-7b3a-4a80-a3d3-7c2ae5e61e15",
        "status": "active",
        "intent": "order",
        "category": [
          {
            "coding": [
              {
                "system": "http://snomed.info/sct",
                "code": "108252007",
                "display": "Laboratory procedure"
              }
            ]
          }
        ],
        "code": {
          "coding": [
            {
              "system": "http://loinc.org",
              "code": "54089-8",
              "display": "Newborn screening panel American Health Information Community (AHIC)"
            }
          ]
        },
        "subject": {
          "reference": "Patient/3e2d39d3-1e7d-4d2e-96a2-721e29fbba92"
        },
        "authoredOn": "2023-03-20T10:00:37-05:00"
      }
    }
  ]
}
