{
  "resourceType" : "Bundle",
  "id" : "1696524903034430000.eb38702e-23df-4650-9e4c-c7d4b3b6b92b",
  "meta" : {
    "lastUpdated" : "2023-10-05T12:55:03.058-04:00"
  },
  "identifier" : {
    "system" : "https://reportstream.cdc.gov/prime-router",
    "value" : "31808297"
  },
  "type" : "message",
  "timestamp" : "2023-05-06T06:29:16.000-04:00",
  "entry" : [ {
    "fullUrl" : "MessageHeader/87c2d0db-6f31-3666-b9e2-7152e039c11f",
    "resource" : {
      "resourceType" : "MessageHeader",
      "id" : "87c2d0db-6f31-3666-b9e2-7152e039c11f",
      "meta" : {
        "extension" : [ {
          "url" : "http://ibm.com/fhir/cdm/StructureDefinition/source-data-model-version",
          "valueString" : "2.5.1"
        } ],
        "tag" : [ {
          "extension" : [ {
            "url" : "https://reportstream.cdc.gov/fhir/StructureDefinition/code-index-name",
            "valueString" : "identifier"
          } ],
          "system" : "http://terminology.hl7.org/CodeSystem/v2-0103",
          "code" : "P"
        } ]
      },
      "extension" : [ {
        "url" : "https://reportstream.cdc.gov/fhir/StructureDefinition/application-acknowledgement-type",
        "valueIdentifier" : {
          "type" : {
            "coding" : [ {
              "extension" : [ {
                "url" : "https://reportstream.cdc.gov/fhir/StructureDefinition/code-index-name",
                "valueString" : "identifier"
              } ],
              "system" : "http://terminology.hl7.org/CodeSystem/v3-AcknowledgementCondition",
              "code" : "AL"
            } ]
          }
        }
      }, {
        "url" : "https://reportstream.cdc.gov/fhir/StructureDefinition/accept-acknowledgement-type",
        "valueIdentifier" : {
          "type" : {
            "coding" : [ {
              "extension" : [ {
                "url" : "https://reportstream.cdc.gov/fhir/StructureDefinition/code-index-name",
                "valueString" : "identifier"
              } ],
              "system" : "http://terminology.hl7.org/CodeSystem/v3-AcknowledgementCondition",
              "code" : "AL"
            } ]
          }
        }
      }, {
        "url" : "https://reportstream.cdc.gov/fhir/StructureDefinition/source-message-profile-id",
        "valueIdentifier" : {
          "extension" : [ {
            "url" : "https://reportstream.cdc.gov/fhir/StructureDefinition/universal-id",
            "valueOid" : "urn:oid:2.16.840.1.113883.9.82"
          } ],
          "value" : "LAB_PRU_COMPONENT"
        }
      }, {
        "url" : "https://reportstream.cdc.gov/fhir/StructureDefinition/source-message-profile-id",
        "valueIdentifier" : {
          "extension" : [ {
            "url" : "https://reportstream.cdc.gov/fhir/StructureDefinition/universal-id",
            "valueOid" : "urn:oid:2.16.840.1.113883.9.22"
          } ],
          "value" : "LAB_TO_COMPONENT"
        }
      } ],
      "eventCoding" : {
        "system" : "http://terminology.hl7.org/CodeSystem/v2-0003",
        "code" : "O01",
        "display" : "ORM - Order message (also RDE, RDS, RGV, RAS)"
      },
      "destination" : [ {
        "target" : {
          "reference" : "Device/1696524903179002000.a59db3f2-22e7-4276-9af7-fc1d6b528ef0"
        },
        "endpoint" : "urn:dns:natus.health.state.mn.us",
        "receiver" : {
          "reference" : "Organization/urn-oid-2.16.840.1.114222.4.1.10080"
        }
      } ],
      "sender" : {
        "reference" : "Organization/1696524904963483000.5567ed19-73ed-4b9d-a340-9f6cb985d512"
      },
      "source" : {
        "extension" : [ {
          "url" : "https://reportstream.cdc.gov/fhir/StructureDefinition/software-vendor-org",
          "valueReference" : {
            "reference" : "Organization/1696524903199973000.d613edeb-6e7d-4345-a4d9-1734a298649d"
          }
        } ],
        "name" : "Epic",
        "endpoint" : "urn:oid:1.2.840.114350.1.13.145.2.7.2.695071"
      }
    }
  }, {
    "fullUrl" : "Device/1696524903179002000.a59db3f2-22e7-4276-9af7-fc1d6b528ef0",
    "resource" : {
      "resourceType" : "Device",
      "id" : "1696524903179002000.a59db3f2-22e7-4276-9af7-fc1d6b528ef0",
      "meta" : {
        "extension" : [ {
          "url" : "http://ibm.com/fhir/cdm/StructureDefinition/source-data-model-version",
          "valueString" : "2.5.1"
        } ],
        "tag" : [ {
          "extension" : [ {
            "url" : "https://reportstream.cdc.gov/fhir/StructureDefinition/code-index-name",
            "valueString" : "identifier"
          } ],
          "system" : "http://terminology.hl7.org/CodeSystem/v2-0103",
          "code" : "P"
        } ]
      },
      "identifier" : [ {
        "value" : "NATUS"
      }, {
        "type" : {
          "coding" : [ {
            "extension" : [ {
              "url" : "https://reportstream.cdc.gov/fhir/StructureDefinition/code-index-name",
              "valueString" : "identifier"
            } ],
            "system" : "http://terminology.hl7.org/CodeSystem/v2-0301",
            "code" : "DNS"
          } ]
        },
        "value" : "urn:dns:natus.health.state.mn.us"
      } ]
    }
  }, {
    "fullUrl" : "Organization/urn-oid-2.16.840.1.114222.4.1.10080",
    "resource" : {
      "resourceType" : "Organization",
      "id" : "urn-oid-2.16.840.1.114222.4.1.10080",
      "meta" : {
        "extension" : [ {
          "url" : "http://ibm.com/fhir/cdm/StructureDefinition/source-data-model-version",
          "valueString" : "2.5.1"
        } ],
        "tag" : [ {
          "extension" : [ {
            "url" : "https://reportstream.cdc.gov/fhir/StructureDefinition/code-index-name",
            "valueString" : "identifier"
          } ],
          "system" : "http://terminology.hl7.org/CodeSystem/v2-0103",
          "code" : "P"
        } ]
      },
      "identifier" : [ {
        "value" : "MN Public Health Lab"
      }, {
        "system" : "urn:id:ISO",
        "value" : "urn:oid:2.16.840.1.114222.4.1.10080"
      } ],
      "name" : "MN Public Health Lab"
    }
  }, {
    "fullUrl" : "Organization/1696524903199973000.d613edeb-6e7d-4345-a4d9-1734a298649d",
    "resource" : {
      "resourceType" : "Organization",
      "id" : "1696524903199973000.d613edeb-6e7d-4345-a4d9-1734a298649d",
      "meta" : {
        "extension" : [ {
          "url" : "http://ibm.com/fhir/cdm/StructureDefinition/source-data-model-version",
          "valueString" : "2.5.1"
        } ],
        "tag" : [ {
          "extension" : [ {
            "url" : "https://reportstream.cdc.gov/fhir/StructureDefinition/code-index-name",
            "valueString" : "identifier"
          } ],
          "system" : "http://terminology.hl7.org/CodeSystem/v2-0103",
          "code" : "P"
        } ]
      }
    }
  }, {
    "fullUrl" : "Organization/1696524904963483000.5567ed19-73ed-4b9d-a340-9f6cb985d512",
    "resource" : {
      "resourceType" : "Organization",
      "id" : "1696524904963483000.5567ed19-73ed-4b9d-a340-9f6cb985d512",
      "meta" : {
        "extension" : [ {
          "url" : "http://ibm.com/fhir/cdm/StructureDefinition/source-data-model-version",
          "valueString" : "2.5.1"
        } ],
        "tag" : [ {
          "extension" : [ {
            "url" : "https://reportstream.cdc.gov/fhir/StructureDefinition/code-index-name",
            "valueString" : "identifier"
          } ],
          "system" : "http://terminology.hl7.org/CodeSystem/v2-0103",
          "code" : "P"
        } ]
      },
      "identifier" : [ {
        "value" : "Centracare"
      }, {
        "type" : {
          "coding" : [ {
            "extension" : [ {
              "url" : "https://reportstream.cdc.gov/fhir/StructureDefinition/code-index-name",
              "valueString" : "identifier"
            } ],
            "system" : "http://terminology.hl7.org/CodeSystem/v2-0301",
            "code" : "DNS"
          } ]
        },
        "value" : "urn:dns:centracare.com"
      } ]
    }
  }, {
    "fullUrl" : "ServiceRequest/1696524905596070000.982d36d6-9de4-478e-bddf-1ac475969203",
    "resource" : {
      "resourceType" : "ServiceRequest",
      "id" : "1696524905596070000.982d36d6-9de4-478e-bddf-1ac475969203",
      "meta" : {
        "extension" : [ {
          "url" : "http://ibm.com/fhir/cdm/StructureDefinition/source-data-model-version",
          "valueString" : "2.5.1"
        } ],
        "tag" : [ {
          "extension" : [ {
            "url" : "https://reportstream.cdc.gov/fhir/StructureDefinition/code-index-name",
            "valueString" : "identifier"
          } ],
          "system" : "http://terminology.hl7.org/CodeSystem/v2-0103",
          "code" : "P"
        } ]
      },
      "extension" : [ {
        "url" : "https://reportstream.cdc.gov/fhir/StructureDefinition/entered-by",
        "valueReference" : {
          "reference" : "Practitioner/1696524905590098000.1b15ae2a-294b-4bc2-8833-bd7c092da451"
        }
      }, {
        "url" : "https://reportstream.cdc.gov/fhir/StructureDefinition/collector-identifier",
        "valueReference" : {
          "reference" : "Practitioner/1696524905593616000.50d7ff17-4b52-4935-ae59-4252163b4ad7"
        }
      }, {
        "url" : "https://reportstream.cdc.gov/fhir/StructureDefinition/order-control",
        "valueCodeableConcept" : {
          "coding" : [ {
            "extension" : [ {
              "url" : "https://reportstream.cdc.gov/fhir/StructureDefinition/code-index-name",
              "valueString" : "identifier"
            } ],
            "system" : "http://terminology.hl7.org/CodeSystem/v2-0119",
            "code" : "NW"
          } ]
        }
      }, {
        "url" : "https://reportstream.cdc.gov/fhir/StructureDefinition/enterers-location",
        "valueReference" : {
          "reference" : "Location/1696524905608195000.86353182-af17-4402-8b01-a8b9be49dd70"
        }
      } ],
      "identifier" : [ {
        "type" : {
          "coding" : [ {
            "extension" : [ {
              "url" : "https://reportstream.cdc.gov/fhir/StructureDefinition/code-index-name",
              "valueString" : "identifier"
            } ],
            "system" : "http://terminology.hl7.org/CodeSystem/v2-0203",
            "code" : "VN",
            "display" : "Visit number"
          } ]
        },
        "value" : "20230506052916-0500"
      }, {
        "type" : {
          "coding" : [ {
            "extension" : [ {
              "url" : "https://reportstream.cdc.gov/fhir/StructureDefinition/code-index-name",
              "valueString" : "identifier"
            } ],
            "code" : "CMS"
          } ]
        },
        "value" : "1043269798"
      }, {
        "type" : {
          "coding" : [ {
            "extension" : [ {
              "url" : "https://reportstream.cdc.gov/fhir/StructureDefinition/code-index-name",
              "valueString" : "identifier"
            } ],
            "code" : "MN Public Health Lab"
          } ]
        },
        "value" : "739"
      }, {
        "extension" : [ {
          "url" : "https://reportstream.cdc.gov/fhir/StructureDefinition/universal-id",
          "valueOid" : "urn:oid:1.2.840.114350.1.13.145.2.7.2.695071"
        } ],
        "type" : {
          "coding" : [ {
            "extension" : [ {
              "url" : "https://reportstream.cdc.gov/fhir/StructureDefinition/code-index-name",
              "valueString" : "identifier"
            } ],
            "system" : "http://terminology.hl7.org/CodeSystem/v2-0203",
            "code" : "PLAC",
            "display" : "Placer Identifier"
          } ]
        },
        "system" : "urn:id:EPIC",
        "value" : "421832901"
      } ],
      "status" : "unknown",
      "intent" : "order",
      "code" : {
        "coding" : [ {
          "extension" : [ {
            "url" : "https://reportstream.cdc.gov/fhir/StructureDefinition/code-index-name",
            "valueString" : "identifier"
          } ],
          "system" : "http://loinc.org",
          "code" : "57717-1",
          "display" : "Newborn screen card data panel"
        } ]
      },
      "subject" : {
        "reference" : "Patient/1696524905575438000.82c0ac3a-9383-471f-9586-25b2f178919d"
      },
      "authoredOn" : "2023-05-06T05:29:13-05:00",
      "requester" : {
        "reference" : "PractitionerRole/1696524905605919000.526f1b1a-137b-4d92-b7b7-b1bea7c7c206"
      }
    }
  }, {
    "fullUrl" : "Practitioner/1696524905590098000.1b15ae2a-294b-4bc2-8833-bd7c092da451",
    "resource" : {
      "resourceType" : "Practitioner",
      "id" : "1696524905590098000.1b15ae2a-294b-4bc2-8833-bd7c092da451",
      "meta" : {
        "extension" : [ {
          "url" : "http://ibm.com/fhir/cdm/StructureDefinition/source-data-model-version",
          "valueString" : "2.5.1"
        } ],
        "tag" : [ {
          "extension" : [ {
            "url" : "https://reportstream.cdc.gov/fhir/StructureDefinition/code-index-name",
            "valueString" : "identifier"
          } ],
          "system" : "http://terminology.hl7.org/CodeSystem/v2-0103",
          "code" : "P"
        } ]
      },
      "identifier" : [ { } ]
    }
  }, {
    "fullUrl" : "Practitioner/1696524905593616000.50d7ff17-4b52-4935-ae59-4252163b4ad7",
    "resource" : {
      "resourceType" : "Practitioner",
      "id" : "1696524905593616000.50d7ff17-4b52-4935-ae59-4252163b4ad7",
      "meta" : {
        "extension" : [ {
          "url" : "http://ibm.com/fhir/cdm/StructureDefinition/source-data-model-version",
          "valueString" : "2.5.1"
        } ],
        "tag" : [ {
          "extension" : [ {
            "url" : "https://reportstream.cdc.gov/fhir/StructureDefinition/code-index-name",
            "valueString" : "identifier"
          } ],
          "system" : "http://terminology.hl7.org/CodeSystem/v2-0103",
          "code" : "P"
        } ]
      },
      "identifier" : [ { } ]
    }
  }, {
    "fullUrl" : "Practitioner/1696524905599676000.ad4c02b2-9fbb-4ced-a8f9-67b393e96297",
    "resource" : {
      "resourceType" : "Practitioner",
      "id" : "1696524905599676000.ad4c02b2-9fbb-4ced-a8f9-67b393e96297",
      "meta" : {
        "extension" : [ {
          "url" : "http://ibm.com/fhir/cdm/StructureDefinition/source-data-model-version",
          "valueString" : "2.5.1"
        } ],
        "tag" : [ {
          "extension" : [ {
            "url" : "https://reportstream.cdc.gov/fhir/StructureDefinition/code-index-name",
            "valueString" : "identifier"
          } ],
          "system" : "http://terminology.hl7.org/CodeSystem/v2-0103",
          "code" : "P"
        } ]
      },
      "extension" : [ {
        "url" : "https://reportstream.cdc.gov/fhir/StructureDefinition/identifier-type",
        "valueCodeableConcept" : {
          "coding" : [ {
            "extension" : [ {
              "url" : "https://reportstream.cdc.gov/fhir/StructureDefinition/code-index-name",
              "valueString" : "identifier"
            } ],
            "system" : "http://terminology.hl7.org/CodeSystem/v2-0203",
            "code" : "NPI"
          } ]
        }
      } ],
      "identifier" : [ {
        "extension" : [ {
          "url" : "https://reportstream.cdc.gov/fhir/StructureDefinition/assigning-authority-namespace-id",
          "valueString" : "NPI"
        } ],
        "type" : {
          "coding" : [ {
            "system" : "http://terminology.hl7.org/CodeSystem/v2-0203",
            "code" : "NPI",
            "display" : "National provider identifier"
          } ]
        },
        "system" : "http://hl7.org/fhir/sid/us-npi",
        "value" : "1265136360"
      } ],
      "name" : [ {
        "use" : "official",
        "text" : "JANE JONES",
        "family" : "JONES",
        "given" : [ "JANE" ]
      } ]
    }
  }, {
    "fullUrl" : "Location/1696524905603533000.3f6b4881-4a5e-453d-8002-6571bad68864",
    "resource" : {
      "resourceType" : "Location",
      "id" : "1696524905603533000.3f6b4881-4a5e-453d-8002-6571bad68864",
      "meta" : {
        "extension" : [ {
          "url" : "http://ibm.com/fhir/cdm/StructureDefinition/source-data-model-version",
          "valueString" : "2.5.1"
        } ],
        "tag" : [ {
          "extension" : [ {
            "url" : "https://reportstream.cdc.gov/fhir/StructureDefinition/code-index-name",
            "valueString" : "identifier"
          } ],
          "system" : "http://terminology.hl7.org/CodeSystem/v2-0103",
          "code" : "P"
        } ]
      }
    }
  }, {
    "fullUrl" : "Organization/1696524905605634000.8ae477ca-eb62-435f-b4f8-c839e9b7182b",
    "resource" : {
      "resourceType" : "Organization",
      "id" : "1696524905605634000.8ae477ca-eb62-435f-b4f8-c839e9b7182b",
      "meta" : {
        "extension" : [ {
          "url" : "http://ibm.com/fhir/cdm/StructureDefinition/source-data-model-version",
          "valueString" : "2.5.1"
        } ],
        "tag" : [ {
          "extension" : [ {
            "url" : "https://reportstream.cdc.gov/fhir/StructureDefinition/code-index-name",
            "valueString" : "identifier"
          } ],
          "system" : "http://terminology.hl7.org/CodeSystem/v2-0103",
          "code" : "P"
        } ]
      },
      "extension" : [ {
        "url" : "https://reportstream.cdc.gov/fhir/StructureDefinition/organization-name-type",
        "valueCoding" : {
          "extension" : [ {
            "url" : "https://reportstream.cdc.gov/fhir/StructureDefinition/code-index-name",
            "valueString" : "identifier"
          } ],
          "system" : "http://terminology.hl7.org/CodeSystem/v2-0204",
          "code" : "L",
          "display" : "Legal name"
        }
      } ],
      "identifier" : [ {
        "extension" : [ {
          "url" : "https://reportstream.cdc.gov/fhir/StructureDefinition/assigning-authority",
          "extension" : [ {
            "url" : "https://reportstream.cdc.gov/fhir/StructureDefinition/namespace-id",
            "valueString" : "CMS"
          } ]
        }, {
          "url" : "https://reportstream.cdc.gov/fhir/StructureDefinition/assigning-facility",
          "valueReference" : {
            "reference" : "Location/1696524905603533000.3f6b4881-4a5e-453d-8002-6571bad68864"
          }
        } ],
        "type" : {
          "coding" : [ {
            "extension" : [ {
              "url" : "https://reportstream.cdc.gov/fhir/StructureDefinition/code-index-name",
              "valueString" : "identifier"
            } ],
            "system" : "http://terminology.hl7.org/CodeSystem/v2-0203",
            "code" : "NPI"
          } ]
        },
        "value" : "1043269798"
      } ],
      "name" : "ST. CLOUD HOSPITAL"
    }
  }, {
    "fullUrl" : "PractitionerRole/1696524905605919000.526f1b1a-137b-4d92-b7b7-b1bea7c7c206",
    "resource" : {
      "resourceType" : "PractitionerRole",
      "id" : "1696524905605919000.526f1b1a-137b-4d92-b7b7-b1bea7c7c206",
      "meta" : {
        "extension" : [ {
          "url" : "http://ibm.com/fhir/cdm/StructureDefinition/source-data-model-version",
          "valueString" : "2.5.1"
        } ],
        "tag" : [ {
          "extension" : [ {
            "url" : "https://reportstream.cdc.gov/fhir/StructureDefinition/code-index-name",
            "valueString" : "identifier"
          } ],
          "system" : "http://terminology.hl7.org/CodeSystem/v2-0103",
          "code" : "P"
        } ]
      },
      "practitioner" : {
        "reference" : "Practitioner/1696524905599676000.ad4c02b2-9fbb-4ced-a8f9-67b393e96297"
      },
      "organization" : {
        "reference" : "Organization/1696524905605634000.8ae477ca-eb62-435f-b4f8-c839e9b7182b"
      }
    }
  }, {
    "fullUrl" : "Location/1696524905608195000.86353182-af17-4402-8b01-a8b9be49dd70",
    "resource" : {
      "resourceType" : "Location",
      "id" : "1696524905608195000.86353182-af17-4402-8b01-a8b9be49dd70",
      "meta" : {
        "extension" : [ {
          "url" : "http://ibm.com/fhir/cdm/StructureDefinition/source-data-model-version",
          "valueString" : "2.5.1"
        } ],
        "tag" : [ {
          "extension" : [ {
            "url" : "https://reportstream.cdc.gov/fhir/StructureDefinition/code-index-name",
            "valueString" : "identifier"
          } ],
          "system" : "http://terminology.hl7.org/CodeSystem/v2-0103",
          "code" : "P"
        } ]
      }
    }
  }, {
    "fullUrl" : "Observation/1696524905829540000.9483cd16-e97b-40ef-bac3-c6f761523b55",
    "resource" : {
      "resourceType" : "Observation",
      "id" : "1696524905829540000.9483cd16-e97b-40ef-bac3-c6f761523b55",
      "meta" : {
        "extension" : [ {
          "url" : "http://ibm.com/fhir/cdm/StructureDefinition/source-data-model-version",
          "valueString" : "2.5.1"
        } ],
        "tag" : [ {
          "extension" : [ {
            "url" : "https://reportstream.cdc.gov/fhir/StructureDefinition/code-index-name",
            "valueString" : "identifier"
          } ],
          "system" : "http://terminology.hl7.org/CodeSystem/v2-0103",
          "code" : "P"
        } ]
      },
      "extension" : [ {
        "url" : "https://reportstream.cdc.gov/fhir/StructureDefinition/observation-sub-type",
        "valueString" : "AOE"
      }, {
        "url" : "https://reportstream.cdc.gov/fhir/StructureDefinition/observation-type",
        "valueString" : "QST"
      }, {
        "url" : "https://reportstream.cdc.gov/fhir/StructureDefinition/observation-status-original-text",
        "valueString" : "O"
      }, {
        "url" : "https://reportstream.cdc.gov/fhir/StructureDefinition/units",
        "valueCodeableConcept" : {
          "coding" : [ {
            "extension" : [ {
              "url" : "https://reportstream.cdc.gov/fhir/StructureDefinition/code-index-name",
              "valueString" : "identifier"
            } ],
            "system" : "http://unitsofmeasure.org",
            "code" : "g",
            "display" : "gram"
          } ]
        }
      }, {
        "url" : "https://reportstream.cdc.gov/fhir/StructureDefinition/sub-id",
        "valueString" : "1"
      } ],
      "identifier" : [ {
        "system" : "urn:id:extID",
        "value" : "421832901"
      } ],
      "status" : "unknown",
      "code" : {
        "coding" : [ {
          "extension" : [ {
            "url" : "https://reportstream.cdc.gov/fhir/StructureDefinition/code-index-name",
            "valueString" : "identifier"
          } ],
          "system" : "http://loinc.org",
          "code" : "8339-4",
          "display" : "BIRTH WEIGHT MEASURED"
        } ]
      },
      "subject" : {
        "reference" : "Patient/1696524905575438000.82c0ac3a-9383-471f-9586-25b2f178919d"
      },
      "effectiveDateTime" : "2023-05-06T05:00:00-05:00",
      "valueQuantity" : {
        "extension" : [ {
          "url" : "https://reportstream.cdc.gov/fhir/StructureDefinition/alternate-value",
          "valueString" : "1769.859285"
        } ],
        "value" : 1769.8593,
        "unit" : "g",
        "system" : "http://unitsofmeasure.org",
        "code" : "g"
      }
    }
  }, {
    "fullUrl" : "Observation/1696524905834983000.0dd4ba16-01a4-4283-8be0-d08960bd97d1",
    "resource" : {
      "resourceType" : "Observation",
      "id" : "1696524905834983000.0dd4ba16-01a4-4283-8be0-d08960bd97d1",
      "meta" : {
        "extension" : [ {
          "url" : "http://ibm.com/fhir/cdm/StructureDefinition/source-data-model-version",
          "valueString" : "2.5.1"
        } ],
        "tag" : [ {
          "extension" : [ {
            "url" : "https://reportstream.cdc.gov/fhir/StructureDefinition/code-index-name",
            "valueString" : "identifier"
          } ],
          "system" : "http://terminology.hl7.org/CodeSystem/v2-0103",
          "code" : "P"
        } ]
      },
      "extension" : [ {
        "url" : "https://reportstream.cdc.gov/fhir/StructureDefinition/observation-sub-type",
        "valueString" : "AOE"
      }, {
        "url" : "https://reportstream.cdc.gov/fhir/StructureDefinition/observation-type",
        "valueString" : "QST"
      }, {
        "url" : "https://reportstream.cdc.gov/fhir/StructureDefinition/observation-status-original-text",
        "valueString" : "O"
      }, {
        "url" : "https://reportstream.cdc.gov/fhir/StructureDefinition/units",
        "valueCodeableConcept" : {
          "coding" : [ {
            "extension" : [ {
              "url" : "https://reportstream.cdc.gov/fhir/StructureDefinition/code-index-name",
              "valueString" : "identifier"
            } ],
            "system" : "http://unitsofmeasure.org",
            "code" : "wk",
            "display" : "week"
          } ]
        }
      }, {
        "url" : "https://reportstream.cdc.gov/fhir/StructureDefinition/sub-id",
        "valueString" : "1"
      } ],
      "identifier" : [ {
        "system" : "urn:id:extID",
        "value" : "421832901"
      } ],
      "status" : "unknown",
      "code" : {
        "coding" : [ {
          "extension" : [ {
            "url" : "https://reportstream.cdc.gov/fhir/StructureDefinition/code-index-name",
            "valueString" : "identifier"
          } ],
          "system" : "http://loinc.org",
          "code" : "57714-8",
          "display" : "OBSTETRIC ESTIMATION OF GESTATIONAL AGE"
        } ]
      },
      "subject" : {
        "reference" : "Patient/1696524905575438000.82c0ac3a-9383-471f-9586-25b2f178919d"
      },
      "effectiveDateTime" : "2023-05-06T05:00:00-05:00",
      "valueQuantity" : {
        "extension" : [ {
          "url" : "https://reportstream.cdc.gov/fhir/StructureDefinition/alternate-value",
          "valueString" : "32"
        } ],
        "value" : 32,
        "unit" : "wk",
        "system" : "http://unitsofmeasure.org",
        "code" : "wk"
      }
    }
  }, {
    "fullUrl" : "Observation/1696524905840262000.18b7e3c1-4f18-4e20-ac21-a9bde6d140e4",
    "resource" : {
      "resourceType" : "Observation",
      "id" : "1696524905840262000.18b7e3c1-4f18-4e20-ac21-a9bde6d140e4",
      "meta" : {
        "extension" : [ {
          "url" : "http://ibm.com/fhir/cdm/StructureDefinition/source-data-model-version",
          "valueString" : "2.5.1"
        } ],
        "tag" : [ {
          "extension" : [ {
            "url" : "https://reportstream.cdc.gov/fhir/StructureDefinition/code-index-name",
            "valueString" : "identifier"
          } ],
          "system" : "http://terminology.hl7.org/CodeSystem/v2-0103",
          "code" : "P"
        } ]
      },
      "extension" : [ {
        "url" : "https://reportstream.cdc.gov/fhir/StructureDefinition/observation-sub-type",
        "valueString" : "AOE"
      }, {
        "url" : "https://reportstream.cdc.gov/fhir/StructureDefinition/observation-type",
        "valueString" : "QST"
      }, {
        "url" : "https://reportstream.cdc.gov/fhir/StructureDefinition/observation-status-original-text",
        "valueString" : "O"
      }, {
        "url" : "https://reportstream.cdc.gov/fhir/StructureDefinition/sub-id",
        "valueString" : "1"
      } ],
      "identifier" : [ {
        "system" : "urn:id:extID",
        "value" : "421832901"
      } ],
      "status" : "unknown",
      "code" : {
        "coding" : [ {
          "extension" : [ {
            "url" : "https://reportstream.cdc.gov/fhir/StructureDefinition/code-index-name",
            "valueString" : "identifier"
          } ],
          "system" : "http://loinc.org",
          "code" : "57713-0",
          "display" : "INFANT FACTORS THAT AFFECT NEWBORN SCREENING INTERPRETATION"
        } ]
      },
      "subject" : {
        "reference" : "Patient/1696524905575438000.82c0ac3a-9383-471f-9586-25b2f178919d"
      },
      "effectiveDateTime" : "2023-05-06T05:00:00-05:00",
      "valueCodeableConcept" : {
        "coding" : [ {
          "extension" : [ {
            "url" : "https://reportstream.cdc.gov/fhir/StructureDefinition/code-index-name",
            "valueString" : "identifier"
          } ],
          "system" : "http://loinc.org",
          "code" : "LA12419-0",
          "display" : "INFANT IN NICU AT TIME OF SPECIMEN COLLECTION"
        } ]
      }
    }
  }, {
    "fullUrl" : "Observation/1696524905844987000.414a5d54-f6cb-477c-8b66-0d4970c42d26",
    "resource" : {
      "resourceType" : "Observation",
      "id" : "1696524905844987000.414a5d54-f6cb-477c-8b66-0d4970c42d26",
      "meta" : {
        "extension" : [ {
          "url" : "http://ibm.com/fhir/cdm/StructureDefinition/source-data-model-version",
          "valueString" : "2.5.1"
        } ],
        "tag" : [ {
          "extension" : [ {
            "url" : "https://reportstream.cdc.gov/fhir/StructureDefinition/code-index-name",
            "valueString" : "identifier"
          } ],
          "system" : "http://terminology.hl7.org/CodeSystem/v2-0103",
          "code" : "P"
        } ]
      },
      "extension" : [ {
        "url" : "https://reportstream.cdc.gov/fhir/StructureDefinition/observation-sub-type",
        "valueString" : "AOE"
      }, {
        "url" : "https://reportstream.cdc.gov/fhir/StructureDefinition/observation-type",
        "valueString" : "QST"
      }, {
        "url" : "https://reportstream.cdc.gov/fhir/StructureDefinition/observation-status-original-text",
        "valueString" : "O"
      }, {
        "url" : "https://reportstream.cdc.gov/fhir/StructureDefinition/sub-id",
        "valueString" : "1"
      } ],
      "identifier" : [ {
        "system" : "urn:id:extID",
        "value" : "421832901"
      } ],
      "status" : "unknown",
      "code" : {
        "coding" : [ {
          "extension" : [ {
            "url" : "https://reportstream.cdc.gov/fhir/StructureDefinition/code-index-name",
            "valueString" : "identifier"
          } ],
          "system" : "99MDH",
          "code" : "MNDSIB",
          "display" : "DOES THE BABY HAVE A DECEASED SIBLING?"
        } ]
      },
      "subject" : {
        "reference" : "Patient/1696524905575438000.82c0ac3a-9383-471f-9586-25b2f178919d"
      },
      "effectiveDateTime" : "2023-05-06T05:00:00-05:00",
      "valueCodeableConcept" : {
        "coding" : [ {
          "extension" : [ {
            "url" : "https://reportstream.cdc.gov/fhir/StructureDefinition/code-index-name",
            "valueString" : "identifier"
          } ],
          "system" : "99MDH",
          "code" : "N",
          "display" : "No"
        } ]
      }
    }
  }, {
    "fullUrl" : "Observation/1696524905850166000.d5549235-8734-4ba3-bca2-7195310e3cd0",
    "resource" : {
      "resourceType" : "Observation",
      "id" : "1696524905850166000.d5549235-8734-4ba3-bca2-7195310e3cd0",
      "meta" : {
        "extension" : [ {
          "url" : "http://ibm.com/fhir/cdm/StructureDefinition/source-data-model-version",
          "valueString" : "2.5.1"
        } ],
        "tag" : [ {
          "extension" : [ {
            "url" : "https://reportstream.cdc.gov/fhir/StructureDefinition/code-index-name",
            "valueString" : "identifier"
          } ],
          "system" : "http://terminology.hl7.org/CodeSystem/v2-0103",
          "code" : "P"
        } ]
      },
      "extension" : [ {
        "url" : "https://reportstream.cdc.gov/fhir/StructureDefinition/observation-sub-type",
        "valueString" : "AOE"
      }, {
        "url" : "https://reportstream.cdc.gov/fhir/StructureDefinition/observation-type",
        "valueString" : "QST"
      }, {
        "url" : "https://reportstream.cdc.gov/fhir/StructureDefinition/observation-status-original-text",
        "valueString" : "O"
      }, {
        "url" : "https://reportstream.cdc.gov/fhir/StructureDefinition/sub-id",
        "valueString" : "1"
      } ],
      "identifier" : [ {
        "system" : "urn:id:extID",
        "value" : "421832901"
      } ],
      "status" : "unknown",
      "code" : {
        "coding" : [ {
          "extension" : [ {
            "url" : "https://reportstream.cdc.gov/fhir/StructureDefinition/code-index-name",
            "valueString" : "identifier"
          } ],
          "system" : "99MDH",
          "code" : "MNDEFECT",
          "display" : "DOES THE BABY HAVE BIRTH DEFECTS?"
        } ]
      },
      "subject" : {
        "reference" : "Patient/1696524905575438000.82c0ac3a-9383-471f-9586-25b2f178919d"
      },
      "effectiveDateTime" : "2023-05-06T05:00:00-05:00",
      "valueCodeableConcept" : {
        "coding" : [ {
          "extension" : [ {
            "url" : "https://reportstream.cdc.gov/fhir/StructureDefinition/code-index-name",
            "valueString" : "identifier"
          } ],
          "system" : "99MDH",
          "code" : "N",
          "display" : "No"
        } ]
      }
    }
  }, {
    "fullUrl" : "Observation/1696524905855558000.9d8997c0-0fc8-44c1-9d57-e972f38dfa56",
    "resource" : {
      "resourceType" : "Observation",
      "id" : "1696524905855558000.9d8997c0-0fc8-44c1-9d57-e972f38dfa56",
      "meta" : {
        "extension" : [ {
          "url" : "http://ibm.com/fhir/cdm/StructureDefinition/source-data-model-version",
          "valueString" : "2.5.1"
        } ],
        "tag" : [ {
          "extension" : [ {
            "url" : "https://reportstream.cdc.gov/fhir/StructureDefinition/code-index-name",
            "valueString" : "identifier"
          } ],
          "system" : "http://terminology.hl7.org/CodeSystem/v2-0103",
          "code" : "P"
        } ]
      },
      "extension" : [ {
        "url" : "https://reportstream.cdc.gov/fhir/StructureDefinition/observation-sub-type",
        "valueString" : "AOE"
      }, {
        "url" : "https://reportstream.cdc.gov/fhir/StructureDefinition/observation-type",
        "valueString" : "QST"
      }, {
        "url" : "https://reportstream.cdc.gov/fhir/StructureDefinition/observation-status-original-text",
        "valueString" : "O"
      }, {
        "url" : "https://reportstream.cdc.gov/fhir/StructureDefinition/sub-id",
        "valueString" : "1"
      } ],
      "identifier" : [ {
        "system" : "urn:id:extID",
        "value" : "421832901"
      } ],
      "status" : "unknown",
      "code" : {
        "coding" : [ {
          "extension" : [ {
            "url" : "https://reportstream.cdc.gov/fhir/StructureDefinition/code-index-name",
            "valueString" : "identifier"
          } ],
          "system" : "99MDH",
          "code" : "MNFAM",
          "display" : "FAMILY HISTORY OF DISORDER ON MN SCREENING PANEL"
        } ]
      },
      "subject" : {
        "reference" : "Patient/1696524905575438000.82c0ac3a-9383-471f-9586-25b2f178919d"
      },
      "effectiveDateTime" : "2023-05-06T05:00:00-05:00",
      "valueCodeableConcept" : {
        "coding" : [ {
          "extension" : [ {
            "url" : "https://reportstream.cdc.gov/fhir/StructureDefinition/code-index-name",
            "valueString" : "identifier"
          } ],
          "system" : "99MDH",
          "code" : "N",
          "display" : "No"
        } ]
      }
    }
  }, {
    "fullUrl" : "Observation/1696524905860288000.7e2df072-32ed-4b48-9b2f-57414fb77159",
    "resource" : {
      "resourceType" : "Observation",
      "id" : "1696524905860288000.7e2df072-32ed-4b48-9b2f-57414fb77159",
      "meta" : {
        "extension" : [ {
          "url" : "http://ibm.com/fhir/cdm/StructureDefinition/source-data-model-version",
          "valueString" : "2.5.1"
        } ],
        "tag" : [ {
          "extension" : [ {
            "url" : "https://reportstream.cdc.gov/fhir/StructureDefinition/code-index-name",
            "valueString" : "identifier"
          } ],
          "system" : "http://terminology.hl7.org/CodeSystem/v2-0103",
          "code" : "P"
        } ]
      },
      "extension" : [ {
        "url" : "https://reportstream.cdc.gov/fhir/StructureDefinition/observation-sub-type",
        "valueString" : "AOE"
      }, {
        "url" : "https://reportstream.cdc.gov/fhir/StructureDefinition/observation-type",
        "valueString" : "QST"
      }, {
        "url" : "https://reportstream.cdc.gov/fhir/StructureDefinition/observation-status-original-text",
        "valueString" : "O"
      }, {
        "url" : "https://reportstream.cdc.gov/fhir/StructureDefinition/sub-id",
        "valueString" : "1"
      } ],
      "identifier" : [ {
        "system" : "urn:id:extID",
        "value" : "421832901"
      } ],
      "status" : "unknown",
      "code" : {
        "coding" : [ {
          "extension" : [ {
            "url" : "https://reportstream.cdc.gov/fhir/StructureDefinition/code-index-name",
            "valueString" : "identifier"
          } ],
          "system" : "http://loinc.org",
          "code" : "67704-7",
          "display" : "FEEDING TYPES"
        } ]
      },
      "subject" : {
        "reference" : "Patient/1696524905575438000.82c0ac3a-9383-471f-9586-25b2f178919d"
      },
      "effectiveDateTime" : "2023-05-06T05:00:00-05:00",
      "valueCodeableConcept" : {
        "coding" : [ {
          "extension" : [ {
            "url" : "https://reportstream.cdc.gov/fhir/StructureDefinition/code-index-name",
            "valueString" : "identifier"
          } ],
          "system" : "http://loinc.org",
          "code" : "LA12418-2",
          "display" : "TPN"
        } ]
      }
    }
  }, {
    "fullUrl" : "Observation/1696524905865370000.d8868af5-82d8-409e-a3dc-899f862fdacf",
    "resource" : {
      "resourceType" : "Observation",
      "id" : "1696524905865370000.d8868af5-82d8-409e-a3dc-899f862fdacf",
      "meta" : {
        "extension" : [ {
          "url" : "http://ibm.com/fhir/cdm/StructureDefinition/source-data-model-version",
          "valueString" : "2.5.1"
        } ],
        "tag" : [ {
          "extension" : [ {
            "url" : "https://reportstream.cdc.gov/fhir/StructureDefinition/code-index-name",
            "valueString" : "identifier"
          } ],
          "system" : "http://terminology.hl7.org/CodeSystem/v2-0103",
          "code" : "P"
        } ]
      },
      "extension" : [ {
        "url" : "https://reportstream.cdc.gov/fhir/StructureDefinition/observation-sub-type",
        "valueString" : "AOE"
      }, {
        "url" : "https://reportstream.cdc.gov/fhir/StructureDefinition/observation-type",
        "valueString" : "QST"
      }, {
        "url" : "https://reportstream.cdc.gov/fhir/StructureDefinition/observation-status-original-text",
        "valueString" : "O"
      }, {
        "url" : "https://reportstream.cdc.gov/fhir/StructureDefinition/sub-id",
        "valueString" : "2"
      } ],
      "identifier" : [ {
        "system" : "urn:id:extID",
        "value" : "421832901"
      } ],
      "status" : "unknown",
      "code" : {
        "coding" : [ {
          "extension" : [ {
            "url" : "https://reportstream.cdc.gov/fhir/StructureDefinition/code-index-name",
            "valueString" : "identifier"
          } ],
          "system" : "http://loinc.org",
          "code" : "67704-7",
          "display" : "FEEDING TYPES"
        } ]
      },
      "subject" : {
        "reference" : "Patient/1696524905575438000.82c0ac3a-9383-471f-9586-25b2f178919d"
      },
      "effectiveDateTime" : "2023-05-06T05:00:00-05:00",
      "valueCodeableConcept" : {
        "coding" : [ {
          "extension" : [ {
            "url" : "https://reportstream.cdc.gov/fhir/StructureDefinition/code-index-name",
            "valueString" : "identifier"
          } ],
          "system" : "http://loinc.org",
          "code" : "LA16914-6",
          "display" : "BREAST MILK"
        } ]
      }
    }
  }, {
    "fullUrl" : "Observation/1696524905869656000.e38f991b-6af9-4407-9e10-6e5786b52864",
    "resource" : {
      "resourceType" : "Observation",
      "id" : "1696524905869656000.e38f991b-6af9-4407-9e10-6e5786b52864",
      "meta" : {
        "extension" : [ {
          "url" : "http://ibm.com/fhir/cdm/StructureDefinition/source-data-model-version",
          "valueString" : "2.5.1"
        } ],
        "tag" : [ {
          "extension" : [ {
            "url" : "https://reportstream.cdc.gov/fhir/StructureDefinition/code-index-name",
            "valueString" : "identifier"
          } ],
          "system" : "http://terminology.hl7.org/CodeSystem/v2-0103",
          "code" : "P"
        } ]
      },
      "extension" : [ {
        "url" : "https://reportstream.cdc.gov/fhir/StructureDefinition/observation-sub-type",
        "valueString" : "AOE"
      }, {
        "url" : "https://reportstream.cdc.gov/fhir/StructureDefinition/observation-type",
        "valueString" : "QST"
      }, {
        "url" : "https://reportstream.cdc.gov/fhir/StructureDefinition/observation-status-original-text",
        "valueString" : "O"
      }, {
        "url" : "https://reportstream.cdc.gov/fhir/StructureDefinition/sub-id",
        "valueString" : "1"
      } ],
      "identifier" : [ {
        "system" : "urn:id:extID",
        "value" : "421832901"
      } ],
      "status" : "unknown",
      "code" : {
        "coding" : [ {
          "extension" : [ {
            "url" : "https://reportstream.cdc.gov/fhir/StructureDefinition/code-index-name",
            "valueString" : "identifier"
          } ],
          "system" : "http://loinc.org",
          "code" : "57723-9",
          "display" : "UNIQUE BAR CODE NUMBER OF CURRENT SAMPLE"
        } ]
      },
      "subject" : {
        "reference" : "Patient/1696524905575438000.82c0ac3a-9383-471f-9586-25b2f178919d"
      },
      "effectiveDateTime" : "2023-05-06T05:00:00-05:00",
      "valueCodeableConcept" : {
        "coding" : [ {
          "extension" : [ {
            "url" : "https://reportstream.cdc.gov/fhir/StructureDefinition/code-index-name",
            "valueString" : "identifier"
          } ],
          "code" : "0516199364"
        } ]
      }
    }
  }, {
    "fullUrl" : "Observation/1696524905873154000.409b11db-39f2-4afd-9836-d6d9e192bb60",
    "resource" : {
      "resourceType" : "Observation",
      "id" : "1696524905873154000.409b11db-39f2-4afd-9836-d6d9e192bb60",
      "meta" : {
        "extension" : [ {
          "url" : "http://ibm.com/fhir/cdm/StructureDefinition/source-data-model-version",
          "valueString" : "2.5.1"
        } ],
        "tag" : [ {
          "extension" : [ {
            "url" : "https://reportstream.cdc.gov/fhir/StructureDefinition/code-index-name",
            "valueString" : "identifier"
          } ],
          "system" : "http://terminology.hl7.org/CodeSystem/v2-0103",
          "code" : "P"
        } ]
      },
      "extension" : [ {
        "url" : "https://reportstream.cdc.gov/fhir/StructureDefinition/observation-sub-type",
        "valueString" : "AOE"
      }, {
        "url" : "https://reportstream.cdc.gov/fhir/StructureDefinition/observation-type",
        "valueString" : "QST"
      }, {
        "url" : "https://reportstream.cdc.gov/fhir/StructureDefinition/observation-status-original-text",
        "valueString" : "O"
      }, {
        "url" : "https://reportstream.cdc.gov/fhir/StructureDefinition/sub-id",
        "valueString" : "1"
      } ],
      "identifier" : [ {
        "system" : "urn:id:extID",
        "value" : "421832901"
      } ],
      "status" : "unknown",
      "code" : {
        "coding" : [ {
          "extension" : [ {
            "url" : "https://reportstream.cdc.gov/fhir/StructureDefinition/code-index-name",
            "valueString" : "identifier"
          } ],
          "system" : "http://loinc.org",
          "code" : "62328-0",
          "display" : "DISCHARGE PROVIDER PRACTICE PHONE NUMBER"
        } ]
      },
      "subject" : {
        "reference" : "Patient/1696524905575438000.82c0ac3a-9383-471f-9586-25b2f178919d"
      },
      "effectiveDateTime" : "2023-05-06T05:00:00-05:00",
      "valueString" : "Daniel Davis/218-555-1000"
    }
  }, {
    "fullUrl" : "Observation/1696524905877244000.23bcd535-0e9c-416c-912f-9ce764c16abb",
    "resource" : {
      "resourceType" : "Observation",
      "id" : "1696524905877244000.23bcd535-0e9c-416c-912f-9ce764c16abb",
      "meta" : {
        "extension" : [ {
          "url" : "http://ibm.com/fhir/cdm/StructureDefinition/source-data-model-version",
          "valueString" : "2.5.1"
        } ],
        "tag" : [ {
          "extension" : [ {
            "url" : "https://reportstream.cdc.gov/fhir/StructureDefinition/code-index-name",
            "valueString" : "identifier"
          } ],
          "system" : "http://terminology.hl7.org/CodeSystem/v2-0103",
          "code" : "P"
        } ]
      },
      "extension" : [ {
        "url" : "https://reportstream.cdc.gov/fhir/StructureDefinition/observation-sub-type",
        "valueString" : "AOE"
      }, {
        "url" : "https://reportstream.cdc.gov/fhir/StructureDefinition/observation-type",
        "valueString" : "QST"
      }, {
        "url" : "https://reportstream.cdc.gov/fhir/StructureDefinition/observation-status-original-text",
        "valueString" : "O"
      }, {
        "url" : "https://reportstream.cdc.gov/fhir/StructureDefinition/sub-id",
        "valueString" : "1"
      } ],
      "identifier" : [ {
        "system" : "urn:id:extID",
        "value" : "421832901"
      } ],
      "status" : "unknown",
      "code" : {
        "coding" : [ {
          "extension" : [ {
            "url" : "https://reportstream.cdc.gov/fhir/StructureDefinition/code-index-name",
            "valueString" : "identifier"
          } ],
          "system" : "http://loinc.org",
          "code" : "62324-9",
          "display" : "POST-DISCHARGE PROVIDER NAME"
        } ]
      },
      "subject" : {
        "reference" : "Patient/1696524905575438000.82c0ac3a-9383-471f-9586-25b2f178919d"
      },
      "effectiveDateTime" : "2023-05-06T05:00:00-05:00",
      "valueString" : "DAVIS, DANIEL, MD"
    }
  }, {
    "fullUrl" : "Observation/1696524905881352000.d67ec52b-7fe3-4e20-b223-c429189fe97a",
    "resource" : {
      "resourceType" : "Observation",
      "id" : "1696524905881352000.d67ec52b-7fe3-4e20-b223-c429189fe97a",
      "meta" : {
        "extension" : [ {
          "url" : "http://ibm.com/fhir/cdm/StructureDefinition/source-data-model-version",
          "valueString" : "2.5.1"
        } ],
        "tag" : [ {
          "extension" : [ {
            "url" : "https://reportstream.cdc.gov/fhir/StructureDefinition/code-index-name",
            "valueString" : "identifier"
          } ],
          "system" : "http://terminology.hl7.org/CodeSystem/v2-0103",
          "code" : "P"
        } ]
      },
      "extension" : [ {
        "url" : "https://reportstream.cdc.gov/fhir/StructureDefinition/observation-sub-type",
        "valueString" : "AOE"
      }, {
        "url" : "https://reportstream.cdc.gov/fhir/StructureDefinition/observation-type",
        "valueString" : "QST"
      }, {
        "url" : "https://reportstream.cdc.gov/fhir/StructureDefinition/observation-status-original-text",
        "valueString" : "O"
      }, {
        "url" : "https://reportstream.cdc.gov/fhir/StructureDefinition/sub-id",
        "valueString" : "1"
      } ],
      "identifier" : [ {
        "system" : "urn:id:extID",
        "value" : "421832901"
      } ],
      "status" : "unknown",
      "code" : {
        "coding" : [ {
          "extension" : [ {
            "url" : "https://reportstream.cdc.gov/fhir/StructureDefinition/code-index-name",
            "valueString" : "identifier"
          } ],
          "system" : "http://loinc.org",
          "code" : "62326-4",
          "display" : "POST-DISCHARGE PROVIDER PRACTICE NAME"
        } ]
      },
      "subject" : {
        "reference" : "Patient/1696524905575438000.82c0ac3a-9383-471f-9586-25b2f178919d"
      },
      "effectiveDateTime" : "2023-05-06T05:00:00-05:00",
      "valueString" : "Lakeridge Health Revere"
    }
  }, {
    "fullUrl" : "Specimen/1696524905902577000.39e1c22c-7956-4cc2-8ec8-f40b603383cc",
    "resource" : {
      "resourceType" : "Specimen",
      "id" : "1696524905902577000.39e1c22c-7956-4cc2-8ec8-f40b603383cc",
      "meta" : {
        "extension" : [ {
          "url" : "http://ibm.com/fhir/cdm/StructureDefinition/source-data-model-version",
          "valueString" : "2.5.1"
        } ],
        "tag" : [ {
          "extension" : [ {
            "url" : "https://reportstream.cdc.gov/fhir/StructureDefinition/code-index-name",
            "valueString" : "identifier"
          } ],
          "system" : "http://terminology.hl7.org/CodeSystem/v2-0103",
          "code" : "P"
        } ]
      },
      "extension" : [ {
        "url" : "https://reportstream.cdc.gov/fhir/StructureDefinition/specimen-name-or-code",
        "valueString" : "440500007"
      } ],
      "type" : {
        "coding" : [ {
          "extension" : [ {
            "url" : "https://reportstream.cdc.gov/fhir/StructureDefinition/code-index-name",
            "valueString" : "identifier"
          } ],
          "system" : "http://snomed.info/sct",
          "code" : "440500007",
          "display" : "Blood spot specimen"
        } ]
      },
      "subject" : {
        "reference" : "Patient/1696524905575438000.82c0ac3a-9383-471f-9586-25b2f178919d"
      },
      "collection" : {
        "collectedDateTime" : "2023-05-06T05:00:00Z"
      }
    }
  }, {
    "fullUrl" : "Patient/1696524905575438000.82c0ac3a-9383-471f-9586-25b2f178919d",
    "resource" : {
      "resourceType" : "Patient",
      "id" : "1696524905575438000.82c0ac3a-9383-471f-9586-25b2f178919d",
      "meta" : {
        "extension" : [ {
          "url" : "http://ibm.com/fhir/cdm/StructureDefinition/source-data-model-version",
          "valueString" : "2.5.1"
        } ],
        "tag" : [ {
          "extension" : [ {
            "url" : "https://reportstream.cdc.gov/fhir/StructureDefinition/code-index-name",
            "valueString" : "identifier"
          } ],
          "system" : "http://terminology.hl7.org/CodeSystem/v2-0103",
          "code" : "P"
        }, {
          "extension" : [ {
            "url" : "https://reportstream.cdc.gov/fhir/StructureDefinition/code-index-name",
            "valueString" : "identifier"
          } ],
          "system" : "http://terminology.hl7.org/CodeSystem/v2-0207",
          "code" : "P"
        } ]
      },
      "extension" : [ {
        "url" : "http://hl7.org/fhir/StructureDefinition/patient-mothersMaidenName",
        "valueHumanName" : {
          "text" : "SADIE S SMITH",
          "family" : "SMITH",
          "given" : [ "SADIE", "S" ]
        }
      } ],
      "identifier" : [ {
        "type" : {
          "coding" : [ {
            "system" : "http://terminology.hl7.org/CodeSystem/v2-0203",
            "code" : "MR",
            "display" : "Medical record number"
          } ]
        },
        "system" : "CRPMRN",
        "value" : "11102779"
      } ],
      "name" : [ {
        "use" : "official",
        "text" : "BB SARAH SMITH",
        "family" : "SMITH",
        "given" : [ "BB SARAH" ]
      } ],
      "telecom" : [ {
        "extension" : [ {
          "url" : "https://reportstream.cdc.gov/fhir/StructureDefinition/text",
          "valueString" : "(763)555-5555"
        } ],
        "system" : "phone",
        "value" : "(763) 555 555",
        "use" : "home"
      } ],
      "gender" : "male",
      "birthDate" : "2023-05-04",
      "_birthDate" : {
        "extension" : [ {
          "url" : "http://hl7.org/fhir/StructureDefinition/patient-birthTime",
          "valueDateTime" : "2023-05-04T13:10:23-05:00"
        } ]
      },
      "deceasedBoolean" : false,
      "address" : [ {
        "use" : "home",
        "line" : [ "555 STATE HIGHWAY 13" ],
        "city" : "DEER CREEK",
        "district" : "OTTER TAIL",
        "state" : "MN",
        "postalCode" : "56527-9657",
        "country" : "USA"
      } ],
      "multipleBirthBoolean" : false
    }
  } ]
}